!VG(V) = -0.484									
!VG(mA) = -0.002									
!VD(V) = 3.500									
!VD(mA) = 120.604									
!Temp(V) = 0.025275									
# GHz   S   DB   R   50									
!%	Freq(GHz)	     S11(dB)	    S11(deg)	     S21(dB)	    S21(deg)	     S12(dB)	    S12(deg)	     S22(dB)	    S22(deg)
	0.05	-0.037	-18.557	-69.34	-63.426	-75.183	-50.47	-0.572	-48.32
	0.1	-0.071	-17.774	-70.755	41.684	-74.554	-40.671	-0.534	-78.025
	0.15	-0.59	-33.243	-65.645	6.573	-78.131	-56.827	-0.565	-94.578
	0.2	-1.153	-46.336	-56.812	5.936	-70.409	-19.688	-0.456	-115.492
	0.25	-0.915	-52.04	-48.973	-16.283	-84.684	-44.063	-0.107	-127.333
	0.3	-2.196	-63.943	-41.764	-50.541	-76.424	-64.856	-0.008	-135.457
	0.35	-2.675	-69.984	-35.493	-103.804	-72.565	-144.231	-0.234	-143.737
	0.4	-2.563	-74.52	-33.369	-167.792	-73.292	-137.819	-0.153	-149.788
	0.45	-3.219	-77.956	-34.469	146.61	-64.808	-162.747	-0.211	-154.878
	0.5	-2.789	-79.41	-35.678	115.237	-62.178	160.824	-0.255	-159.002
	0.55	-2.409	-85.619	-36.266	93.475	-63.937	161.507	-0.211	-162.867
	0.6	-2.196	-92.553	-35.173	72.168	-60.698	136.343	-0.231	-166.178
	0.65	-2.055	-99.179	-33.061	40.41	-61.041	115.196	-0.246	-169.257
	0.7	-2.32	-103.983	-32.059	-4.624	-59.353	92.497	-0.218	-171.858
	0.75	-2.276	-107.634	-33.579	-53.904	-61.034	68.095	-0.242	-174.464
	0.8	-1.869	-111.766	-36.338	-100.813	-61.846	54.406	-0.248	-176.863
	0.85	-1.685	-117.369	-41.215	-152.086	-63.857	34.663	-0.243	-179.045
	0.9	-1.607	-122.473	-49.723	169.741	-66.323	29.367	-0.273	178.867
	0.95	-1.43	-127.262	-57.97	148.834	-67.67	25.502	-0.264	176.844
	1	-1.332	-132.244	-64.32	127.677	-73.541	11.8	-0.27	174.951
	1.05	-1.255	-137.145	-67.207	122.195	-73.077	11.191	-0.289	173.024
	1.1	-1.169	-142.181	-65.887	122.012	-69.531	42.94	-0.29	171.251
	1.15	-1.174	-146.903	-64.653	112.754	-75.378	49.595	-0.303	169.498
	1.2	-1.154	-151.524	-62.996	110.929	-71.742	45.744	-0.317	167.749
	1.25	-1.133	-155.863	-61.446	106.504	-72.857	80.364	-0.34	166.106
	1.3	-1.17	-160.168	-60.032	105.03	-72.64	61.09	-0.331	164.418
	1.35	-1.182	-164.198	-58.723	103.571	-72.376	90.178	-0.352	162.828
	1.4	-1.195	-168.23	-58.022	107.368	-71.817	76.512	-0.361	161.103
	1.45	-1.22	-172.149	-57.604	107.423	-72.012	87.26	-0.361	159.604
	1.5	-1.25	-175.954	-57.311	111.423	-71.316	90.327	-0.386	157.963
	1.55	-1.28	-179.733	-57.55	116.088	-71.215	77.019	-0.387	156.345
	1.6	-1.315	176.654	-59.167	128.164	-70.16	73.192	-0.405	154.833
	1.65	-1.356	173.169	-58.85	160.189	-68.197	85.404	-0.427	153.207
	1.7	-1.388	169.708	-56.249	-170.002	-72.756	60.067	-0.432	151.746
	1.75	-1.418	166.256	-51.694	-151.504	-68.307	70.871	-0.455	150.072
	1.8	-1.46	162.931	-47.424	-142.874	-69.763	66.878	-0.46	148.502
	1.85	-1.487	159.524	-43.722	-139.722	-68.955	62.824	-0.466	146.887
	1.9	-1.518	156.277	-40.342	-140.119	-67.809	70.453	-0.483	145.313
	1.95	-1.556	153.011	-37.251	-141.283	-68.174	66.973	-0.49	143.73
	2	-1.587	149.747	-34.403	-143.398	-69.184	48.305	-0.517	142.13
	2.05	-1.635	146.541	-31.741	-146.653	-67.308	56.088	-0.526	140.561
	2.1	-1.676	143.411	-29.279	-150.288	-66.334	56.468	-0.553	139.015
	2.15	-1.712	140.225	-26.933	-154.609	-66.472	55.675	-0.563	137.381
	2.2	-1.742	137.018	-24.711	-159.329	-67.199	61.244	-0.571	135.739
	2.25	-1.782	133.907	-22.618	-164.388	-65.876	49.647	-0.598	134.118
	2.3	-1.809	130.707	-20.608	-169.791	-67.362	53.237	-0.6	132.422
	2.35	-1.864	127.559	-18.732	-175.693	-66.762	62.775	-0.633	130.834
	2.4	-1.905	124.42	-16.945	178.363	-68.089	41.868	-0.658	129.174
	2.45	-1.94	121.266	-15.239	172.106	-68.311	49.557	-0.668	127.541
	2.5	-1.997	118.107	-13.648	165.673	-67.332	47.332	-0.71	125.964
	2.55	-2.045	115.005	-12.132	159.123	-66.641	32.201	-0.721	124.279
	2.6	-2.094	111.849	-10.692	152.411	-67.086	32.66	-0.734	122.661
	2.65	-2.144	108.692	-9.351	145.651	-67.229	42.429	-0.766	120.999
	2.7	-2.188	105.507	-8.072	138.858	-68.653	22.331	-0.782	119.376
	2.75	-2.245	102.191	-6.871	132.031	-67.675	36.451	-0.805	117.65
	2.8	-2.309	99.031	-5.747	125.226	-68.68	46.836	-0.828	115.944
	2.85	-2.362	95.802	-4.678	118.52	-66.243	33.519	-0.844	114.268
	2.9	-2.442	92.47	-3.685	111.843	-68.709	16.379	-0.874	112.59
	2.95	-2.499	89.252	-2.726	105.339	-67.42	33.463	-0.884	110.953
	3	-2.577	86.074	-1.835	98.967	-68.745	25.085	-0.91	109.192
	3.05	-2.655	82.673	-0.975	92.597	-67.596	23.052	-0.919	107.51
	3.1	-2.742	79.475	-0.171	86.423	-67.962	14.224	-0.961	105.829
	3.15	-2.822	76.123	0.608	80.341	-71.696	22.854	-0.966	104.058
	3.2	-2.901	72.684	1.362	74.309	-70.744	18.125	-0.994	102.387
	3.25	-3.013	69.339	2.06	68.49	-67.697	11.114	-1.017	100.608
	3.3	-3.097	65.831	2.762	62.647	-70.761	23.678	-1.028	98.838
	3.35	-3.202	62.432	3.411	56.983	-71.507	6.795	-1.064	97.022
	3.4	-3.317	58.938	4.044	51.477	-71.303	17.62	-1.089	95.356
	3.45	-3.422	55.357	4.657	45.928	-68.409	26.5	-1.113	93.479
	3.5	-3.545	51.916	5.248	40.61	-71.077	15.725	-1.138	91.724
	3.55	-3.656	48.319	5.833	35.317	-74.917	37.732	-1.166	89.925
	3.6	-3.762	44.762	6.389	30.105	-72.681	21.234	-1.201	88.108
	3.65	-3.902	41.078	6.929	24.992	-73.949	12.004	-1.224	86.209
	3.7	-4.024	37.347	7.459	19.9	-73.963	46.34	-1.257	84.368
	3.75	-4.166	33.494	7.982	14.905	-75.93	44.823	-1.278	82.612
	3.8	-4.306	29.61	8.479	9.952	-76.901	14.969	-1.31	80.731
	3.85	-4.445	25.871	8.961	5.155	-77.869	11.562	-1.359	78.842
	3.9	-4.582	21.911	9.433	0.38	-83.397	61.225	-1.391	76.876
	3.95	-4.723	17.998	9.901	-4.382	-75.563	50.57	-1.421	74.968
	4	-4.867	13.911	10.365	-8.971	-75.674	49.872	-1.47	73.051
	4.05	-5.006	9.741	10.804	-13.607	-70.574	36.145	-1.512	71.067
	4.1	-5.153	5.532	11.251	-18.18	-80.728	16.96	-1.562	69.115
	4.15	-5.31	1.298	11.694	-22.681	-74.49	32.011	-1.59	67.022
	4.2	-5.441	-2.923	12.109	-27.105	-77.83	63.1	-1.659	65.104
	4.25	-5.579	-7.267	12.54	-31.527	-79.578	77.769	-1.71	62.955
	4.3	-5.717	-11.63	12.939	-35.814	-77.517	62.052	-1.752	60.915
	4.35	-5.858	-16.229	13.37	-40.1	-75.655	50.259	-1.831	58.835
	4.4	-5.984	-20.765	13.772	-44.339	-73.844	73.297	-1.878	56.693
	4.45	-6.103	-25.372	14.183	-48.546	-73.703	97.614	-1.962	54.533
	4.5	-6.219	-30.051	14.593	-52.801	-74.418	53.865	-2.022	52.236
	4.55	-6.358	-34.785	15.012	-56.949	-78.749	45.251	-2.09	50.108
	4.6	-6.451	-39.561	15.417	-61.2	-73.199	60.657	-2.181	47.723
	4.65	-6.563	-44.181	15.82	-65.272	-73.71	38.842	-2.251	45.418
	4.7	-6.658	-49.025	16.229	-69.494	-78.286	46.82	-2.369	42.926
	4.75	-6.738	-53.82	16.636	-73.671	-77.519	55.278	-2.435	40.498
	4.8	-6.827	-58.657	17.043	-77.857	-87.8	65.917	-2.551	38.054
	4.85	-6.874	-63.429	17.451	-82.161	-76.289	80.903	-2.677	35.372
	4.9	-6.951	-68.164	17.865	-86.442	-83.495	52.09	-2.77	32.78
	4.95	-6.994	-73.12	18.281	-90.871	-81.651	-19.88	-2.919	30.074
	5	-7.042	-77.776	18.668	-95.172	-82.496	24.227	-3.035	27.361
	5.05	-7.079	-82.545	19.056	-99.569	-81.214	105.025	-3.185	24.608
	5.1	-7.091	-87.012	19.426	-104.011	-91.991	73.403	-3.337	21.606
	5.15	-7.119	-91.716	19.825	-108.572	-79.155	11.699	-3.49	18.727
	5.2	-7.126	-96.225	20.192	-113.161	-81.108	-100.099	-3.671	15.633
	5.25	-7.149	-100.723	20.556	-117.838	-82.747	-127.632	-3.848	12.612
	5.3	-7.163	-105.11	20.917	-122.561	-75.818	-108.351	-4.048	9.426
	5.35	-7.189	-109.502	21.261	-127.315	-73.823	-148.632	-4.249	6.182
	5.4	-7.212	-113.757	21.587	-132.087	-74.206	-154.53	-4.46	2.997
	5.45	-7.24	-117.806	21.896	-136.824	-73.513	-155.478	-4.692	-0.356
	5.5	-7.254	-121.797	22.193	-141.644	-70.309	-166.32	-4.922	-3.709
	5.55	-7.26	-125.719	22.48	-146.425	-69.128	165.41	-5.173	-7.122
	5.6	-7.291	-129.552	22.773	-151.337	-70.495	160.103	-5.403	-10.762
	5.65	-7.309	-133.346	23.03	-156.153	-70.031	-173.563	-5.663	-14.258
	5.7	-7.339	-137.082	23.301	-161.137	-66.632	178.147	-5.95	-18.014
	5.75	-7.378	-140.919	23.532	-166.039	-69.852	-172.542	-6.227	-21.654
	5.8	-7.427	-144.673	23.755	-170.956	-64.474	-175.528	-6.551	-25.401
	5.85	-7.503	-148.109	23.94	-175.707	-64.167	176.668	-6.838	-28.947
	5.9	-7.579	-151.485	24.135	179.532	-64.936	154.922	-7.127	-32.507
	5.95	-7.623	-154.75	24.318	174.739	-65.286	153.39	-7.427	-36.525
	6	-7.701	-158.219	24.499	169.946	-64.807	149.885	-7.721	-40.283
	6.05	-7.776	-161.654	24.649	165.146	-65.157	158.95	-8.075	-44.311
	6.1	-7.893	-165.016	24.792	160.465	-64.084	164.563	-8.39	-48.034
	6.15	-8.028	-168.316	24.916	155.81	-61.58	147.677	-8.747	-51.659
	6.2	-8.143	-171.284	25.051	151.261	-61.439	137.413	-9.029	-55.357
	6.25	-8.255	-174.505	25.17	146.654	-60.998	141.217	-9.326	-59.27
	6.3	-8.381	-177.765	25.263	142.114	-60.762	135.135	-9.68	-63.119
	6.35	-8.552	179.199	25.365	137.67	-60.551	135.415	-10.002	-66.794
	6.4	-8.667	176.103	25.461	133.218	-60.971	127.58	-10.28	-70.607
	6.45	-8.827	173.042	25.542	128.817	-61.061	118.966	-10.589	-74.438
	6.5	-8.985	169.697	25.619	124.424	-60.277	118.632	-10.927	-78.061
	6.55	-9.132	166.613	25.686	120.12	-60.291	111.406	-11.205	-81.961
	6.6	-9.315	163.247	25.743	115.82	-60.078	113.584	-11.533	-85.534
	6.65	-9.475	159.992	25.799	111.548	-61.122	109.472	-11.855	-89.627
	6.7	-9.683	156.298	25.826	107.339	-60.423	110.511	-12.248	-93.147
	6.75	-9.915	152.937	25.861	103.341	-59.054	114.316	-12.618	-96.237
	6.8	-10.164	149.556	25.886	99.371	-59.835	104.446	-12.895	-99.207
	6.85	-10.427	146.045	25.925	95.461	-58.083	100.743	-13.176	-102.1
	6.9	-10.657	143.03	25.963	91.527	-57.988	93.099	-13.36	-105.629
	6.95	-10.887	139.653	25.993	87.569	-57.815	89.629	-13.596	-108.797
	7	-11.092	136.179	26.01	83.747	-57.672	80.155	-13.837	-112.435
	7.05	-11.348	132.43	26.019	79.94	-58.749	76.161	-14.107	-116.025
	7.1	-11.635	128.776	26.033	76.317	-58.969	68.049	-14.411	-119.106
	7.15	-11.97	125.73	26.06	72.773	-58.624	63.469	-14.584	-122.116
	7.2	-12.214	122.823	26.095	69.201	-59.869	57.691	-14.779	-125.689
	7.25	-12.407	120.164	26.138	65.666	-60.228	47.825	-14.95	-129.315
	7.3	-12.516	117.347	26.186	62.042	-61.55	41.104	-15.145	-133.466
	7.35	-12.563	114.082	26.222	58.348	-63.409	38.911	-15.39	-137.716
	7.4	-12.629	110.496	26.258	54.694	-65.07	35.454	-15.694	-141.595
	7.45	-12.689	106.816	26.288	51.01	-65.47	46.656	-15.974	-145.243
	7.5	-12.725	103.031	26.305	47.29	-66.853	40.543	-16.232	-149.15
	7.55	-12.752	99.032	26.305	43.677	-65.996	38.771	-16.506	-153.305
	7.6	-12.773	95.034	26.303	40.132	-66.889	53.726	-16.793	-157.195
	7.65	-12.815	90.976	26.305	36.657	-68.048	39.996	-17.088	-160.763
	7.7	-12.834	86.919	26.31	33.186	-70.31	48.095	-17.314	-163.99
	7.75	-12.88	83.02	26.313	29.681	-66.167	54.946	-17.502	-167.87
	7.8	-12.871	79.136	26.296	26.209	-66.089	62.997	-17.671	-171.919
	7.85	-12.842	75.17	26.274	22.895	-68.628	56.349	-17.999	-175.801
	7.9	-12.867	71.089	26.272	19.643	-68.434	62.8	-18.238	-179.367
	7.95	-12.879	67.496	26.271	16.347	-70.078	69.863	-18.403	177.763
	8	-12.88	63.793	26.273	13.075	-73.647	79.357	-18.58	174.411
	8.05	-12.914	60.305	26.273	9.769	-72	82.847	-18.598	171.597
	8.1	-12.896	56.968	26.263	6.477	-68.939	90.306	-18.717	168.06
	8.15	-12.91	53.715	26.249	3.235	-67.408	81.558	-18.69	164.508
	8.2	-12.882	50.677	26.237	0.016	-66.088	77.833	-18.716	161.316
	8.25	-12.838	47.879	26.211	-3.161	-68.122	79.396	-18.7	157.082
	8.3	-12.794	44.806	26.195	-6.26	-68.426	66.8	-18.708	153.595
	8.35	-12.755	41.876	26.179	-9.328	-69.844	69.795	-18.833	150.087
	8.4	-12.724	39.047	26.162	-12.412	-73.525	81.756	-18.818	146.719
	8.45	-12.684	35.912	26.147	-15.361	-72.512	71.54	-18.926	143.825
	8.5	-12.694	33.071	26.143	-18.372	-71.492	99.745	-18.97	141.114
	8.55	-12.726	30.36	26.139	-21.382	-70.787	67.84	-18.948	139.132
	8.6	-12.716	27.93	26.126	-24.365	-68.41	104.523	-18.896	136.504
	8.65	-12.731	25.458	26.112	-27.296	-70.735	94.393	-18.848	133.912
	8.7	-12.722	22.718	26.112	-30.201	-73.734	92.924	-18.887	131.943
	8.75	-12.8	20.288	26.11	-33.138	-73.875	113.249	-18.809	130.243
	8.8	-12.849	17.911	26.103	-36.073	-71.685	100.567	-18.73	128.446
	8.85	-12.893	15.617	26.1	-38.958	-69.345	102.28	-18.675	126.58
	8.9	-12.974	13.343	26.098	-41.853	-69.165	127.423	-18.555	125.392
	8.95	-13.053	11.174	26.093	-44.761	-69.351	114.606	-18.463	123.972
	9	-13.162	9.247	26.085	-47.617	-73.01	120.125	-18.297	122.171
	9.05	-13.278	7.093	26.076	-50.461	-69.574	98.176	-18.207	120.929
	9.1	-13.361	5.137	26.072	-53.251	-68.55	119.766	-18.13	119.206
	9.15	-13.459	3.012	26.074	-56.04	-70.407	93.418	-18.041	118.327
	9.2	-13.564	0.919	26.078	-58.794	-66.739	108.525	-18.025	117.233
	9.25	-13.756	-1.412	26.086	-61.62	-68.32	116.895	-17.923	116.421
	9.3	-13.93	-3.462	26.086	-64.426	-69.246	101.627	-17.828	115.999
	9.35	-14.144	-5.376	26.084	-67.203	-67.845	115.798	-17.713	114.946
	9.4	-14.324	-7.511	26.09	-69.937	-69.103	101.989	-17.602	114.277
	9.45	-14.533	-9.469	26.095	-72.688	-68.475	104.154	-17.572	113.697
	9.5	-14.751	-11.736	26.103	-75.398	-67.098	110.979	-17.46	113.101
	9.55	-14.963	-14.116	26.111	-78.129	-69.457	131.03	-17.442	112.678
	9.6	-15.254	-16.706	26.131	-80.902	-68.298	133.569	-17.427	112.567
	9.65	-15.64	-19.485	26.14	-83.723	-65.773	119.636	-17.274	113.175
	9.7	-16.028	-21.555	26.136	-86.489	-67.884	148.499	-17.123	112.983
	9.75	-16.387	-23.462	26.132	-89.165	-63.924	112.192	-16.963	112.755
	9.8	-16.698	-25.967	26.141	-91.837	-65.31	114.892	-16.931	112.374
	9.85	-17.082	-28.474	26.152	-94.545	-65.504	107.753	-16.828	112.114
	9.9	-17.449	-31.192	26.16	-97.214	-62.405	116.462	-16.757	112.316
	9.95	-17.862	-33.901	26.171	-99.889	-64.763	101.358	-16.744	112.038
	10	-18.331	-37.726	26.189	-102.583	-65.646	104.056	-16.675	112.148
	10.05	-18.737	-41.445	26.201	-105.271	-63.751	96.782	-16.622	112.391
	10.1	-19.272	-45.136	26.216	-107.959	-63.843	107.067	-16.567	112.493
	10.15	-19.763	-50.278	26.232	-110.675	-65.863	107.267	-16.527	113.101
	10.2	-20.423	-54.606	26.237	-113.4	-65.486	109.382	-16.428	113.29
	10.25	-21.054	-59.419	26.241	-116.039	-63.461	100.354	-16.314	113.203
	10.3	-21.489	-64.713	26.252	-118.689	-64.611	119.924	-16.288	113.252
	10.35	-22.059	-70.681	26.267	-121.328	-64.276	103.277	-16.253	113.274
	10.4	-22.483	-78.302	26.281	-123.99	-64.842	113.798	-16.192	113.634
	10.45	-22.934	-84.816	26.292	-126.603	-63.813	92.323	-16.191	113.557
	10.5	-23.18	-93.013	26.31	-129.263	-63.691	93.809	-16.155	113.678
	10.55	-23.365	-100.841	26.324	-131.877	-62.566	81.737	-16.149	113.775
	10.6	-23.383	-109.303	26.342	-134.51	-63.38	101.495	-16.141	113.903
	10.65	-23.154	-117.116	26.366	-137.158	-65.753	94.535	-16.145	114.043
	10.7	-22.978	-125.516	26.384	-139.832	-64.08	95.506	-16.124	114.367
	10.75	-22.56	-133.399	26.401	-142.498	-64.909	93.429	-16.105	114.495
	10.8	-22.211	-140.709	26.415	-145.16	-64.403	91.48	-16.058	114.658
	10.85	-21.749	-147.524	26.427	-147.787	-62.346	88.118	-16.027	114.623
	10.9	-21.393	-152.64	26.441	-150.375	-62.502	97.204	-16.031	114.293
	10.95	-20.911	-158.05	26.463	-152.977	-62.077	89.447	-16.064	114.031
	11	-20.414	-162.098	26.491	-155.566	-62.68	87.547	-16.123	113.894
	11.05	-19.972	-166.145	26.518	-158.212	-61.608	85.491	-16.185	113.735
	11.1	-19.453	-170.045	26.544	-160.839	-62.277	85.265	-16.237	113.611
	11.15	-19.053	-173.679	26.573	-163.508	-61.738	81.417	-16.326	113.629
	11.2	-18.544	-177.081	26.599	-166.191	-62.756	75.359	-16.368	113.479
	11.25	-18.152	179.939	26.616	-168.855	-62.898	73.388	-16.392	113.28
	11.3	-17.819	176.367	26.641	-171.462	-62.628	78.44	-16.441	112.687
	11.35	-17.486	173.896	26.675	-174.072	-63.175	76.372	-16.56	111.998
	11.4	-17.19	171.453	26.714	-176.755	-61.665	71.594	-16.705	111.638
	11.45	-16.83	168.634	26.743	-179.469	-62.216	66.303	-16.79	111.278
	11.5	-16.578	165.995	26.771	177.869	-62.567	71.761	-16.89	110.566
	11.55	-16.356	163.749	26.812	175.214	-61.651	61.618	-17.078	109.915
	11.6	-16.089	161.844	26.855	172.428	-61.718	58.097	-17.247	109.509
	11.65	-15.806	159.736	26.888	169.643	-62.775	61.156	-17.356	109.305
	11.7	-15.526	157.146	26.911	166.834	-60.853	51.636	-17.45	108.576
	11.75	-15.304	154.479	26.931	164.133	-62.166	53.603	-17.532	107.568
	11.8	-15.118	151.841	26.956	161.393	-62.165	46.937	-17.659	106.459
	11.85	-14.962	149.052	26.981	158.775	-61.926	52.628	-17.777	104.886
	11.9	-14.898	146.528	27.024	156.138	-64.506	59.807	-17.999	103.002
	11.95	-14.826	143.966	27.081	153.414	-61.586	58.439	-18.283	101.258
	12	-14.741	142.048	27.137	150.575	-61.871	56.137	-18.648	99.954
	12.05	-14.661	139.9	27.187	147.662	-59.872	46.862	-18.954	98.686
	12.1	-14.525	137.771	27.227	144.728	-61.801	41.303	-19.246	97.931
	12.15	-14.466	135.558	27.263	141.794	-60.625	43.433	-19.555	96.858
	12.2	-14.328	133.416	27.297	138.799	-59.717	37.953	-19.837	96.208
	12.25	-14.186	131.259	27.314	135.81	-60.234	32.651	-20.052	95.879
	12.3	-14.05	128.13	27.329	132.949	-60.717	31.868	-20.168	94.047
	12.35	-13.981	125.449	27.361	130.01	-60.536	31.942	-20.421	92.716
	12.4	-13.952	122.709	27.394	127.047	-60.604	28.13	-20.765	91.286
	12.45	-13.829	120.146	27.41	123.978	-59.854	24.399	-20.961	90.643
	12.5	-13.766	117.48	27.419	120.967	-59.367	22.745	-21.199	90.187
	12.55	-13.644	114.279	27.424	117.992	-59.201	20.836	-21.304	88.601
	12.6	-13.595	111.55	27.43	114.998	-59.796	13.45	-21.441	88.331
	12.65	-13.515	108.47	27.435	112.005	-59.16	14.343	-21.542	87.288
	12.7	-13.395	105.801	27.437	108.999	-58.778	7.393	-21.51	86.427
	12.75	-13.329	102.692	27.437	106.026	-59.174	8.342	-21.625	84.937
	12.8	-13.136	99.822	27.428	103.017	-58.317	7.167	-21.563	84.282
	12.85	-13.042	96.817	27.423	100.048	-57.868	2.743	-21.585	83.661
	12.9	-12.842	93.31	27.415	97.09	-57.839	-2.266	-21.442	81.954
	12.95	-12.679	90.235	27.41	94.121	-57.921	-4.127	-21.29	81.272
	13	-12.527	86.565	27.4	91.149	-57.227	-9.602	-21.182	79.415
	13.05	-12.326	83.437	27.387	88.171	-56.868	-12.988	-20.934	78.639
	13.1	-12.2	79.77	27.375	85.203	-57.597	-20.108	-20.878	77.147
	13.15	-11.981	76.613	27.358	82.23	-57.495	-15.596	-20.6	75.966
	13.2	-11.824	73.278	27.341	79.305	-57.174	-22.438	-20.441	75.447
	13.25	-11.587	69.643	27.327	76.351	-57.091	-24.896	-20.174	73.484
	13.3	-11.405	66.478	27.315	73.394	-57.289	-30.834	-19.862	73.039
	13.35	-11.208	62.831	27.297	70.39	-56.924	-33.057	-19.671	71.894
	13.4	-10.974	59.753	27.273	67.413	-57.498	-36.624	-19.281	71.015
	13.45	-10.787	56.27	27.251	64.43	-56.786	-35.584	-19.031	70.219
	13.5	-10.545	52.879	27.233	61.443	-56.982	-42.828	-18.663	68.512
	13.55	-10.368	49.783	27.214	58.406	-56.211	-40.468	-18.426	68
	13.6	-10.173	46.409	27.184	55.34	-57.136	-41.917	-18.171	66.403
	13.65	-9.994	43.531	27.145	52.31	-56.29	-42.214	-17.874	66.314
	13.7	-9.799	40.419	27.105	49.304	-56.351	-45.144	-17.708	64.993
	13.75	-9.601	37.659	27.062	46.328	-55.936	-47.069	-17.37	64.247
	13.8	-9.432	34.744	27.021	43.321	-55.501	-50.821	-17.256	64.166
	13.85	-9.237	32.039	26.975	40.322	-55.335	-57.966	-16.989	63.297
	13.9	-9.077	29.572	26.923	37.32	-55.414	-57.465	-16.767	63.961
	13.95	-8.877	26.957	26.872	34.358	-55.043	-57.437	-16.535	63.404
	14	-8.688	24.541	26.818	31.436	-55.142	-68.449	-16.192	63.357
	14.05	-8.475	21.968	26.767	28.485	-54.731	-66.74	-16.023	63.334
	14.1	-8.274	19.503	26.712	25.589	-54.386	-68.153	-15.734	62.859
	14.15	-8.106	17.038	26.66	22.67	-54.912	-74.468	-15.519	63.132
	14.2	-7.921	14.524	26.612	19.774	-54.605	-75.96	-15.297	62.905
	14.25	-7.752	12.132	26.568	16.832	-54.5	-80.756	-15.038	63.298
	14.3	-7.596	9.663	26.517	13.862	-54.553	-81.322	-14.824	63.371
	14.35	-7.447	7.332	26.461	10.899	-54.78	-82.919	-14.513	63.719
	14.4	-7.309	4.95	26.406	7.9	-54.759	-88.319	-14.272	63.929
	14.45	-7.163	2.603	26.341	4.914	-54.685	-91.95	-13.954	63.682
	14.5	-7.046	0.344	26.274	1.941	-54.642	-89.251	-13.691	63.877
	14.55	-6.941	-1.986	26.205	-1.023	-54.486	-91.648	-13.447	63.562
	14.6	-6.843	-4.011	26.131	-3.936	-54.551	-91.023	-13.168	63.497
	14.65	-6.757	-6.104	26.06	-6.874	-54.565	-96.466	-12.954	63.431
	14.7	-6.643	-8.063	25.989	-9.778	-54.37	-95.471	-12.681	63.241
	14.75	-6.554	-9.984	25.922	-12.684	-54.149	-98.715	-12.426	63.311
	14.8	-6.456	-12.022	25.844	-15.642	-54.197	-97.14	-12.175	62.937
	14.85	-6.354	-13.811	25.771	-18.552	-53.945	-101.852	-11.912	62.715
	14.9	-6.273	-15.809	25.686	-21.484	-53.818	-105.97	-11.675	62.383
	14.95	-6.168	-17.614	25.609	-24.372	-54.11	-104.243	-11.429	61.99
	15	-6.097	-19.629	25.522	-27.288	-53.951	-109.053	-11.206	61.723
	15.05	-6	-21.479	25.437	-30.188	-53.612	-112.522	-10.989	61.292
	15.1	-5.95	-23.273	25.354	-33.067	-53.985	-113.775	-10.744	60.911
	15.15	-5.875	-25.26	25.263	-35.973	-53.613	-116.89	-10.521	60.398
	15.2	-5.801	-26.925	25.175	-38.839	-54.02	-119.154	-10.286	59.855
	15.25	-5.744	-28.831	25.082	-41.738	-54.103	-119.785	-10.074	59.272
	15.3	-5.671	-30.569	24.987	-44.599	-53.706	-123.028	-9.853	58.525
	15.35	-5.636	-32.362	24.891	-47.471	-53.757	-126.862	-9.65	57.906
	15.4	-5.569	-34.111	24.784	-50.313	-53.995	-130.169	-9.455	57
	15.45	-5.54	-35.741	24.683	-53.113	-54.119	-131.858	-9.253	56.258
	15.5	-5.485	-37.564	24.587	-55.942	-54.555	-131.661	-9.081	55.315
	15.55	-5.449	-39.117	24.479	-58.751	-54.5	-132.91	-8.887	54.414
	15.6	-5.416	-40.965	24.375	-61.54	-54.443	-135.354	-8.739	53.603
	15.65	-5.379	-42.504	24.264	-64.287	-54.362	-134.522	-8.571	52.548
	15.7	-5.374	-44.202	24.168	-67.047	-54.654	-136.588	-8.405	51.854
	15.75	-5.335	-45.824	24.056	-69.818	-54.236	-140.152	-8.282	50.893
	15.8	-5.335	-47.249	23.949	-72.53	-54.561	-140.695	-8.119	50.039
	15.85	-5.312	-48.858	23.841	-75.245	-54.881	-141.485	-7.982	49.187
	15.9	-5.294	-50.207	23.732	-77.973	-54.285	-143.261	-7.815	48.22
	15.95	-5.279	-51.825	23.63	-80.651	-54.452	-145.441	-7.684	47.44
	16	-5.24	-53.164	23.522	-83.389	-54.151	-145.726	-7.527	46.305
	16.05	-5.252	-54.629	23.416	-86.043	-54.657	-152.498	-7.381	45.534
	16.1	-5.21	-56.101	23.305	-88.79	-54.419	-150.379	-7.263	44.283
	16.15	-5.212	-57.379	23.197	-91.43	-54.463	-151.848	-7.088	43.317
	16.2	-5.192	-58.996	23.084	-94.124	-54.353	-151.498	-7.006	42.291
	16.25	-5.177	-60.136	22.981	-96.772	-54.797	-155.445	-6.845	41.028
	16.3	-5.187	-61.801	22.867	-99.421	-54.523	-154.794	-6.743	40.274
	16.35	-5.141	-63.112	22.757	-102.129	-54.941	-157.975	-6.638	38.833
	16.4	-5.176	-64.507	22.644	-104.74	-54.946	-162.099	-6.488	37.948
	16.45	-5.139	-66.044	22.53	-107.419	-54.945	-165.101	-6.431	36.714
	16.5	-5.162	-67.193	22.418	-110.015	-54.929	-164.647	-6.289	35.51
	16.55	-5.163	-68.856	22.301	-112.656	-55.126	-168.455	-6.211	34.572
	16.6	-5.154	-69.866	22.187	-115.251	-54.68	-165.392	-6.099	33.172
	16.65	-5.181	-71.416	22.071	-117.85	-55.34	-173.387	-5.994	32.233
	16.7	-5.139	-72.659	21.956	-120.466	-55.388	-174.088	-5.923	30.78
	16.75	-5.18	-73.932	21.842	-123.059	-55.492	-176.196	-5.802	29.65
	16.8	-5.149	-75.463	21.726	-125.634	-56.231	176.619	-5.759	28.383
	16.85	-5.161	-76.467	21.605	-128.224	-56.048	178.512	-5.636	27.075
	16.9	-5.173	-78.007	21.494	-130.757	-56.352	179.425	-5.584	25.987
	16.95	-5.149	-79.162	21.374	-133.336	-55.427	177.703	-5.485	24.432
	17	-5.171	-80.55	21.26	-135.91	-56.179	171.915	-5.412	23.392
	17.05	-5.146	-81.794	21.139	-138.429	-56.688	172.224	-5.362	21.762
	17.1	-5.167	-82.995	21.02	-140.981	-57.273	171.642	-5.252	20.611
	17.15	-5.138	-84.433	20.901	-143.524	-56.314	168.871	-5.238	19.279
	17.2	-5.138	-85.459	20.782	-146.08	-57.824	164.955	-5.136	17.664
	17.25	-5.14	-86.907	20.667	-148.599	-56.729	164.166	-5.093	16.552
	17.3	-5.104	-88.041	20.542	-151.126	-58.038	161.927	-5.04	14.87
	17.35	-5.128	-89.238	20.426	-153.635	-57.475	158.173	-4.954	13.679
	17.4	-5.091	-90.552	20.303	-156.144	-58.003	154.67	-4.934	12.147
	17.45	-5.091	-91.574	20.18	-158.62	-59.333	152.819	-4.837	10.686
	17.5	-5.067	-92.958	20.064	-161.164	-57.022	154.748	-4.8	9.296
	17.55	-5.039	-93.934	19.943	-163.65	-58.619	148.542	-4.724	7.603
	17.6	-5.046	-95.237	19.816	-166.174	-58.896	139.936	-4.675	6.328
	17.65	-4.994	-96.363	19.695	-168.712	-59.28	139.905	-4.627	4.568
	17.7	-4.992	-97.427	19.57	-171.161	-58.313	144.952	-4.548	3.186
	17.75	-4.961	-98.704	19.446	-173.694	-59.324	131.071	-4.519	1.506
	17.8	-4.937	-99.591	19.315	-176.133	-60.141	129.65	-4.428	-0.065
	17.85	-4.939	-100.902	19.189	-178.625	-59.048	122.546	-4.394	-1.489
	17.9	-4.884	-101.864	19.06	178.877	-60.916	118.356	-4.327	-3.352
	17.95	-4.896	-102.856	18.929	176.462	-61.445	110.741	-4.257	-4.702
	18	-4.85	-104.039	18.799	174.002	-61.811	102.936	-4.227	-6.47
	18.05	-4.837	-104.84	18.667	171.563	-62.473	103.604	-4.138	-8.061
	18.1	-4.825	-106.068	18.54	169.115	-61.751	96.532	-4.103	-9.633
	18.15	-4.775	-106.897	18.407	166.657	-62.16	89.909	-4.029	-11.392
	18.2	-4.783	-107.855	18.282	164.256	-62.823	72.931	-3.975	-12.847
	18.25	-4.739	-108.881	18.141	161.779	-64.96	61.153	-3.931	-14.626
	18.3	-4.736	-109.723	18.014	159.342	-64.668	62.406	-3.858	-16.124
	18.35	-4.707	-110.791	17.872	156.917	-63.849	54.818	-3.82	-17.679
	18.4	-4.678	-111.492	17.736	154.462	-64.489	41.329	-3.751	-19.306
	18.45	-4.682	-112.528	17.601	152.069	-65.177	28.725	-3.697	-20.803
	18.5	-4.634	-113.367	17.451	149.634	-64.389	31.858	-3.642	-22.404
	18.55	-4.644	-114.227	17.318	147.214	-64.373	13.636	-3.58	-23.849
	18.6	-4.613	-115.19	17.168	144.831	-63.571	4.968	-3.538	-25.401
	18.65	-4.611	-115.86	17.026	142.424	-63.11	2.708	-3.473	-26.877
	18.7	-4.613	-116.875	16.876	140.087	-62.316	1.581	-3.427	-28.264
	18.75	-4.596	-117.428	16.715	137.721	-59.716	-14.538	-3.365	-29.843
	18.8	-4.613	-118.34	16.576	135.344	-59.564	-29.818	-3.321	-31.228
	18.85	-4.574	-118.968	16.419	133.106	-59.989	-35.796	-3.286	-32.698
	18.9	-4.59	-119.564	16.272	130.78	-60.904	-48.581	-3.228	-33.969
	18.95	-4.544	-120.473	16.136	128.538	-60.051	-50.199	-3.196	-35.314
	19	-4.524	-120.85	15.978	126.28	-60.082	-60.564	-3.133	-36.659
	19.05	-4.513	-121.815	15.845	123.917	-58.437	-53.248	-3.09	-37.867
	19.1	-4.459	-122.378	15.694	121.725	-58.53	-62.222	-3.043	-39.316
	19.15	-4.476	-123.248	15.545	119.376	-58.539	-70.134	-2.986	-40.429
	19.2	-4.42	-124.077	15.398	117.145	-58.758	-75.344	-2.96	-41.735
	19.25	-4.433	-124.66	15.238	114.879	-58.569	-77.461	-2.891	-42.947
	19.3	-4.409	-125.642	15.093	112.593	-58.387	-78.149	-2.864	-44.12
	19.35	-4.385	-126.146	14.938	110.464	-57.753	-79.716	-2.802	-45.402
	19.4	-4.38	-127.115	14.789	108.173	-57.439	-91.447	-2.768	-46.497
	19.45	-4.338	-127.711	14.643	106.004	-57.679	-88.225	-2.722	-47.834
	19.5	-4.357	-128.474	14.477	103.85	-57.584	-89.952	-2.675	-48.857
	19.55	-4.311	-129.359	14.333	101.581	-57.337	-92.679	-2.647	-50.174
	19.6	-4.307	-129.816	14.18	99.536	-56.637	-94.313	-2.586	-51.266
	19.65	-4.284	-130.853	14.024	97.306	-56.694	-100.156	-2.573	-52.382
	19.7	-4.243	-131.368	13.884	95.207	-56.381	-99.146	-2.512	-53.658
	19.75	-4.243	-132.32	13.726	93.131	-55.969	-108.973	-2.498	-54.556
	19.8	-4.191	-133.049	13.577	90.971	-55.743	-108.596	-2.462	-55.873
	19.85	-4.193	-133.699	13.43	88.994	-57.148	-115.268	-2.404	-56.729
	19.9	-4.155	-134.73	13.287	86.787	-57.547	-117.941	-2.392	-57.963
	19.95	-4.131	-135.377	13.155	84.749	-56.563	-118.55	-2.321	-58.953
	20	-4.116	-136.401	13.007	82.6	-57.102	-117.131	-2.324	-60.009
	20.05	-4.082	-137.101	12.862	80.44	-58.154	-118.844	-2.271	-61.333
	20.1	-4.079	-138.03	12.719	78.424	-57.656	-110.786	-2.236	-62.117
	20.15	-4.049	-138.834	12.563	76.253	-58.452	-112.228	-2.22	-63.389
	20.2	-4.049	-139.646	12.423	74.176	-57.462	-115.872	-2.164	-64.334
	20.25	-4.018	-140.58	12.271	72.135	-55.621	-117.413	-2.16	-65.415
	20.3	-4.004	-141.243	12.125	70.041	-55.329	-120.51	-2.112	-66.469
	20.35	-3.986	-142.334	11.988	68.014	-54.936	-118.398	-2.101	-67.345
	20.4	-3.949	-143.038	11.827	65.943	-55.421	-126.539	-2.069	-68.536
	20.45	-3.961	-143.895	11.693	63.899	-56.216	-128.517	-2.032	-69.356
	20.5	-3.916	-144.889	11.548	61.884	-55.769	-134.398	-2.013	-70.48
	20.55	-3.899	-145.641	11.407	59.839	-56.557	-136.963	-1.954	-71.359
	20.6	-3.88	-146.671	11.267	57.821	-57.697	-138.256	-1.959	-72.383
	20.65	-3.868	-147.448	11.112	55.783	-57.831	-132.402	-1.915	-73.483
	20.7	-3.863	-148.58	10.98	53.718	-57.542	-132.909	-1.91	-74.306
	20.75	-3.823	-149.407	10.833	51.756	-56.936	-128.829	-1.88	-75.476
	20.8	-3.837	-150.255	10.683	49.752	-56.788	-129.516	-1.854	-76.22
	20.85	-3.804	-151.349	10.554	47.752	-56.803	-134.154	-1.855	-77.336
	20.9	-3.793	-152.174	10.403	45.753	-56.532	-138.859	-1.809	-78.244
	20.95	-3.781	-153.378	10.273	43.698	-56.157	-140.773	-1.816	-79.123
	21	-3.743	-154.17	10.134	41.788	-56.301	-143.244	-1.779	-80.17
	21.05	-3.763	-155.18	9.99	39.773	-56.804	-141.894	-1.775	-80.94
	21.1	-3.721	-156.415	9.859	37.709	-57.08	-142.421	-1.758	-82.129
	21.15	-3.723	-157.23	9.709	35.782	-57.712	-139.965	-1.725	-82.872
	21.2	-3.725	-158.507	9.568	33.724	-56.685	-138.852	-1.741	-83.918
	21.25	-3.69	-159.363	9.431	31.834	-57.008	-142.305	-1.711	-84.845
	21.3	-3.703	-160.491	9.294	29.834	-56.059	-132.857	-1.715	-85.718
	21.35	-3.663	-161.659	9.158	27.847	-55.828	-142.684	-1.695	-86.842
	21.4	-3.667	-162.58	9.022	25.918	-56.093	-144.431	-1.69	-87.624
	21.45	-3.653	-163.938	8.881	23.872	-56.025	-146.9	-1.692	-88.708
	21.5	-3.62	-164.886	8.751	21.96	-56.228	-155.555	-1.665	-89.574
	21.55	-3.623	-166.132	8.613	19.971	-56.288	-146.137	-1.675	-90.567
	21.6	-3.581	-167.209	8.486	17.956	-56.497	-148.495	-1.654	-91.708
	21.65	-3.596	-168.395	8.348	16.028	-56.957	-148.239	-1.659	-92.547
	21.7	-3.552	-169.704	8.206	13.932	-56.916	-150.931	-1.663	-93.701
	21.75	-3.548	-170.677	8.075	11.976	-57.31	-151.883	-1.643	-94.626
	21.8	-3.542	-172.046	7.932	9.994	-56.342	-153.913	-1.659	-95.74
	21.85	-3.503	-173.132	7.797	7.97	-57.24	-150.895	-1.641	-96.853
	21.9	-3.506	-174.355	7.652	6.074	-55.758	-149.869	-1.655	-97.768
	21.95	-3.463	-175.498	7.51	4.04	-55.583	-148.554	-1.657	-99.009
	22	-3.459	-176.649	7.382	2.105	-54.875	-156.785	-1.645	-99.941
	22.05	-3.414	-177.984	7.239	0.103	-54.169	-161.419	-1.665	-101.147
	22.1	-3.4	-179.029	7.102	-1.886	-54.953	-163.128	-1.64	-102.262
	22.15	-3.379	179.615	6.96	-3.863	-55.482	-162.601	-1.66	-103.36
	22.2	-3.343	178.541	6.81	-5.893	-55.564	-171.177	-1.649	-104.657
	22.25	-3.334	177.273	6.678	-7.84	-55.728	-166.109	-1.644	-105.611
	22.3	-3.28	176.1	6.527	-9.815	-55.446	-167.538	-1.663	-106.921
	22.35	-3.279	175.051	6.383	-11.79	-56.641	-168.779	-1.646	-108.056
	22.4	-3.238	173.699	6.235	-13.761	-56.084	-170.703	-1.66	-109.242
	22.45	-3.207	172.698	6.077	-15.78	-55.454	-168.376	-1.645	-110.572
	22.5	-3.207	171.459	5.927	-17.706	-55.178	-173.479	-1.645	-111.646
	22.55	-3.156	170.431	5.773	-19.613	-55.394	-175.815	-1.649	-113.001
	22.6	-3.145	169.392	5.632	-21.546	-56.882	-175.617	-1.627	-114.15
	22.65	-3.094	168.198	5.477	-23.468	-56.504	177.505	-1.648	-115.384
	22.7	-3.075	167.329	5.314	-25.376	-56.413	176.307	-1.631	-116.706
	22.75	-3.046	166.148	5.16	-27.265	-55.981	179.922	-1.633	-117.811
	22.8	-2.995	165.213	5.004	-29.123	-56.061	-176.644	-1.633	-119.144
	22.85	-2.974	164.196	4.852	-30.96	-56.91	178.402	-1.626	-120.312
	22.9	-2.924	163.175	4.706	-32.798	-56.207	175.118	-1.625	-121.56
	22.95	-2.898	162.218	4.556	-34.626	-56.524	176.266	-1.614	-122.669
	23	-2.853	161.149	4.408	-36.505	-56.178	179.586	-1.62	-123.919
	23.05	-2.816	160.323	4.261	-38.362	-56.573	-177.85	-1.596	-125.143
	23.1	-2.792	159.274	4.116	-40.193	-56.724	178.043	-1.594	-126.236
	23.15	-2.74	158.327	3.966	-42.06	-55.296	172.355	-1.574	-127.549
	23.2	-2.718	157.409	3.814	-43.916	-56.133	169.49	-1.564	-128.605
	23.25	-2.682	156.375	3.658	-45.761	-56.19	164.055	-1.569	-129.918
	23.3	-2.645	155.521	3.506	-47.596	-56.554	170.286	-1.54	-131.012
	23.35	-2.621	154.539	3.36	-49.364	-56.464	172.207	-1.547	-132.129
	23.4	-2.58	153.664	3.202	-51.166	-55.877	167.581	-1.522	-133.339
	23.45	-2.561	152.791	3.058	-52.974	-56.88	162.282	-1.52	-134.359
	23.5	-2.534	151.794	2.908	-54.788	-55.826	164.657	-1.508	-135.606
	23.55	-2.505	150.958	2.755	-56.586	-56.334	163.832	-1.494	-136.59
	23.6	-2.481	150.077	2.607	-58.355	-56.46	161.346	-1.493	-137.811
	23.65	-2.461	149.274	2.448	-60.096	-56.509	163.189	-1.465	-138.83
	23.7	-2.439	148.316	2.307	-61.898	-55.565	159.291	-1.474	-139.898
	23.75	-2.409	147.514	2.157	-63.603	-56.159	155.088	-1.442	-141.054
	23.8	-2.397	146.672	2.012	-65.358	-55.433	157.621	-1.448	-141.948
	23.85	-2.371	145.801	1.869	-67.049	-55.847	158.568	-1.437	-143.207
	23.9	-2.354	144.973	1.725	-68.808	-56.835	153.883	-1.412	-144.075
	23.95	-2.329	144.038	1.589	-70.563	-55.896	154.184	-1.425	-145.245
	24	-2.313	143.32	1.443	-72.271	-55.687	154.143	-1.385	-146.276
	24.05	-2.312	142.39	1.304	-73.994	-56.216	154.113	-1.408	-147.194
	24.1	-2.279	141.542	1.165	-75.748	-55.803	146.947	-1.388	-148.432
	24.15	-2.283	140.756	1.025	-77.475	-55.364	149.727	-1.374	-149.2
	24.2	-2.269	139.711	0.887	-79.252	-55.208	146.042	-1.39	-150.352
	24.25	-2.252	138.997	0.746	-80.872	-55.027	141.883	-1.356	-151.321
	24.3	-2.249	138.125	0.609	-82.564	-54.971	141.086	-1.373	-152.316
	24.35	-2.23	137.311	0.476	-84.275	-54.328	136.7	-1.349	-153.391
	24.4	-2.248	136.417	0.342	-85.965	-54.722	136.913	-1.348	-154.236
	24.45	-2.221	135.468	0.207	-87.712	-54.731	132.89	-1.342	-155.379
	24.5	-2.22	134.803	0.089	-89.297	-54.366	132.118	-1.329	-156.245
	24.55	-2.222	133.753	-0.045	-91.055	-54.63	132.631	-1.335	-157.361
	24.6	-2.204	132.996	-0.169	-92.736	-55.15	123.17	-1.311	-158.319
	24.65	-2.221	131.947	-0.301	-94.488	-54.481	131.439	-1.321	-159.278
	24.7	-2.197	131.12	-0.422	-96.172	-54.526	125.725	-1.306	-160.292
	24.75	-2.227	130.261	-0.548	-97.889	-54.374	122.116	-1.313	-161.201
	24.8	-2.209	129.208	-0.673	-99.573	-54.156	119.768	-1.31	-162.349
	24.85	-2.22	128.426	-0.803	-101.245	-53.511	118.78	-1.301	-163.169
	24.9	-2.226	127.291	-0.914	-102.99	-54.341	111.995	-1.311	-164.212
	24.95	-2.23	126.474	-1.05	-104.7	-53.757	109.206	-1.29	-165.177
	25	-2.249	125.406	-1.159	-106.411	-54.547	107.613	-1.306	-166.078
	25.05	-2.239	124.467	-1.291	-108.065	-53.94	105.087	-1.294	-167.196
	25.1	-2.264	123.529	-1.406	-109.77	-54.203	100.488	-1.291	-167.984
	25.15	-2.262	122.49	-1.522	-111.415	-53.734	98.776	-1.301	-169.067
	25.2	-2.281	121.59	-1.647	-113.11	-53.884	91.096	-1.281	-169.983
	25.25	-2.286	120.399	-1.753	-114.838	-53.961	92.606	-1.297	-170.931
	25.3	-2.3	119.553	-1.886	-116.485	-54.46	88.062	-1.279	-171.978
	25.35	-2.328	118.377	-1.993	-118.242	-53.724	83.593	-1.284	-172.738
	25.4	-2.321	117.344	-2.114	-119.888	-54.514	80.889	-1.294	-173.855
	25.45	-2.35	116.302	-2.224	-121.607	-54.135	77.583	-1.275	-174.721
	25.5	-2.358	115.076	-2.339	-123.345	-54.051	76.834	-1.293	-175.729
	25.55	-2.38	114.122	-2.451	-125.011	-54.544	69.739	-1.271	-176.635
	25.6	-2.405	112.86	-2.569	-126.731	-54.556	65.536	-1.29	-177.484
	25.65	-2.408	111.834	-2.678	-128.437	-53.833	65.236	-1.283	-178.553
	25.7	-2.455	110.675	-2.8	-130.046	-55.499	55.123	-1.289	-179.272
	25.75	-2.451	109.505	-2.905	-131.794	-54.952	52.476	-1.297	179.608
	25.8	-2.485	108.455	-3.011	-133.417	-55.204	49.249	-1.268	178.821
	25.85	-2.497	107.078	-3.12	-135.197	-55.718	47.15	-1.298	177.924
	25.9	-2.505	106.029	-3.227	-136.905	-56.082	46.553	-1.282	176.831
	25.95	-2.549	104.753	-3.355	-138.602	-55.161	44.404	-1.289	176.044
	26	-2.562	103.451	-3.458	-140.343	-55.491	38.165	-1.288	175.012
	26.05	-2.581	102.313	-3.569	-141.986	-56.136	31.902	-1.278	174.213
	26.1	-2.602	101.051	-3.676	-143.759	-55.764	29.547	-1.296	173.23
	26.15	-2.632	99.753	-3.784	-145.442	-56.21	31.061	-1.286	172.312
	26.2	-2.653	98.409	-3.9	-147.152	-56.224	26.276	-1.298	171.493
	26.25	-2.677	97.22	-4.018	-148.878	-56.781	18.493	-1.295	170.439
	26.3	-2.701	95.899	-4.122	-150.555	-57.023	18.316	-1.293	169.681
	26.35	-2.715	94.568	-4.232	-152.293	-57.344	13.549	-1.308	168.685
	26.4	-2.737	93.251	-4.335	-154.047	-58.128	12.943	-1.294	167.774
	26.45	-2.773	91.988	-4.459	-155.694	-56.733	10.625	-1.312	166.855
	26.5	-2.797	90.533	-4.575	-157.453	-57.547	1.017	-1.304	165.943
	26.55	-2.804	89.246	-4.674	-159.104	-57.413	3.555	-1.312	165.087
	26.6	-2.841	87.839	-4.786	-160.846	-60.31	-0.555	-1.307	164.085
	26.65	-2.848	86.529	-4.881	-162.567	-56.779	-8.899	-1.307	163.262
	26.7	-2.892	85.155	-4.998	-164.248	-57.368	-1.892	-1.322	162.224
	26.75	-2.904	83.62	-5.112	-165.971	-57.772	-17.187	-1.309	161.405
	26.8	-2.923	82.272	-5.218	-167.71	-59.96	-9.964	-1.323	160.508
	26.85	-2.948	80.886	-5.337	-169.428	-58.078	-30.67	-1.317	159.477
	26.9	-2.967	79.488	-5.434	-171.132	-58.691	-27.754	-1.325	158.613
	26.95	-2.998	77.954	-5.54	-172.858	-58.744	-31.567	-1.318	157.664
	27	-3.01	76.537	-5.672	-174.561	-55.705	-43.511	-1.326	156.876
	27.05	-3.05	75.137	-5.762	-176.357	-58.817	-49.608	-1.323	155.824
	27.1	-3.054	73.634	-5.884	-178.079	-57.484	-56.752	-1.311	155.013
	27.15	-3.088	72.232	-5.988	-179.838	-60.406	-62.507	-1.334	154.079
	27.2	-3.087	70.635	-6.095	178.465	-60.776	-61.516	-1.318	153.025
	27.25	-3.101	69.387	-6.207	176.747	-59.404	-67.509	-1.323	152.246
	27.3	-3.144	67.792	-6.318	174.98	-61.765	-80.471	-1.324	151.248
	27.35	-3.134	66.325	-6.429	173.277	-60.198	-60.007	-1.31	150.366
	27.4	-3.168	64.938	-6.529	171.594	-61.215	-93.277	-1.319	149.422
	27.45	-3.183	63.281	-6.655	169.818	-60.71	-96.529	-1.304	148.507
	27.5	-3.2	61.893	-6.769	168.071	-58.484	-90.885	-1.314	147.655
	27.55	-3.221	60.543	-6.881	166.387	-62.662	-118.723	-1.307	146.625
	27.6	-3.247	58.983	-6.981	164.701	-62.163	-116.509	-1.309	145.877
	27.65	-3.239	57.428	-7.104	162.908	-65.109	-111.636	-1.313	144.776
	27.7	-3.248	56.176	-7.205	161.173	-71.769	-102.471	-1.285	144.051
	27.75	-3.284	54.635	-7.327	159.475	-64.825	-125.153	-1.316	143.194
	27.8	-3.267	53.198	-7.439	157.698	-64.891	-129.519	-1.281	142.1
	27.85	-3.305	51.847	-7.554	156.092	-64.374	-139.296	-1.3	141.411
	27.9	-3.291	50.307	-7.667	154.36	-78.581	164.853	-1.296	140.402
	27.95	-3.318	49.059	-7.779	152.717	-65.226	-103.986	-1.279	139.664
	28	-3.337	47.485	-7.88	151.078	-62.66	-153.556	-1.294	138.644
	28.05	-3.334	46.211	-7.989	149.335	-65.829	-155.317	-1.26	137.772
	28.1	-3.355	44.822	-8.106	147.683	-67.22	-144.093	-1.286	136.992
	28.15	-3.364	43.521	-8.216	145.892	-65.523	-128.997	-1.264	135.833
	28.2	-3.388	42.168	-8.319	144.311	-65.301	-159.448	-1.269	135.117
	28.25	-3.371	40.816	-8.442	142.622	-82.336	20.777	-1.27	134.095
	28.3	-3.397	39.689	-8.549	140.984	-68.939	-142.156	-1.253	133.309
	28.35	-3.411	38.19	-8.641	139.358	-70.055	-148.727	-1.27	132.456
	28.4	-3.418	37.03	-8.758	137.632	-66.668	-136.924	-1.255	131.481
	28.45	-3.433	35.633	-8.858	136.076	-64.267	-171.118	-1.262	130.753
	28.5	-3.434	34.591	-8.978	134.362	-63.472	-157.303	-1.261	129.608
	28.55	-3.479	33.373	-9.073	132.825	-63.784	-144.346	-1.242	128.951
	28.6	-3.465	32.181	-9.167	131.157	-62.359	-154.069	-1.262	127.88
	28.65	-3.505	30.994	-9.264	129.414	-61.16	177.025	-1.222	127.01
	28.7	-3.498	29.752	-9.368	127.783	-63.937	163.059	-1.256	126.209
	28.75	-3.527	28.945	-9.481	126.148	-62.163	164.321	-1.243	125.035
	28.8	-3.558	27.529	-9.57	124.511	-62.567	146.306	-1.243	124.252
	28.85	-3.542	26.63	-9.662	122.898	-62.645	132.874	-1.258	123.109
	28.9	-3.592	25.495	-9.766	121.228	-63.443	159.274	-1.251	122.272
	28.95	-3.587	24.377	-9.85	119.666	-63.945	140.229	-1.283	121.224
	29	-3.647	23.308	-9.943	118.027	-62.996	146.002	-1.257	120.262
	29.05	-3.643	22.123	-10.045	116.35	-64.412	135.986	-1.283	119.339
	29.1	-3.694	21.28	-10.144	114.695	-62.065	146.593	-1.273	118.152
	29.15	-3.713	20.02	-10.22	113.151	-62.52	158.389	-1.286	117.389
	29.2	-3.726	19.241	-10.309	111.427	-64.366	140.099	-1.303	116.081
	29.25	-3.79	18.089	-10.387	109.7	-61.083	150.453	-1.274	115.1
	29.3	-3.783	17.157	-10.485	108.041	-59.678	128.027	-1.319	113.956
	29.35	-3.87	16.232	-10.59	106.329	-59.62	124.84	-1.3	112.735
	29.4	-3.873	14.96	-10.65	104.649	-59.93	111.298	-1.33	111.729
	29.45	-3.917	14.34	-10.755	102.955	-63.371	122.838	-1.337	110.321
	29.5	-3.969	13.11	-10.839	101.195	-61.566	101.158	-1.341	109.29
	29.55	-3.973	12.349	-10.924	99.468	-63.014	99.021	-1.373	107.887
	29.6	-4.068	11.212	-11.014	97.79	-62.307	102.765	-1.349	106.736
	29.65	-4.069	10.204	-11.1	96.052	-63.039	106.869	-1.389	105.496
	29.7	-4.135	9.384	-11.185	94.267	-58.363	108.106	-1.381	104.049
	29.75	-4.19	8.171	-11.285	92.529	-64.922	107.034	-1.401	102.883
	29.8	-4.223	7.249	-11.363	90.832	-62.343	79.377	-1.418	101.392
	29.85	-4.29	6.244	-11.475	89.035	-60.27	90.999	-1.407	100.111
	29.9	-4.335	5.325	-11.555	87.29	-59.422	72.455	-1.446	98.682
	29.95	-4.397	4.297	-11.641	85.606	-58.686	79.833	-1.444	97.202
	30	-4.442	3.282	-11.717	83.751	-59.017	83.848	-1.46	95.884
	30.05	-4.509	2.332	-11.82	81.948	-59.397	78.664	-1.469	94.34
	30.1	-4.554	1.185	-11.922	80.108	-59.904	65.284	-1.471	93.02
	30.15	-4.621	0.359	-12.003	78.304	-61.732	78.161	-1.478	91.392
	30.2	-4.682	-0.89	-12.1	76.447	-60.356	77.209	-1.478	89.932
	30.25	-4.721	-1.801	-12.192	74.631	-60.328	74.954	-1.491	88.43
	30.3	-4.812	-2.832	-12.303	72.863	-59.063	75.648	-1.483	86.895
	30.35	-4.872	-4.063	-12.397	71.016	-62.17	77.016	-1.488	85.422
	30.4	-4.931	-5.09	-12.504	69.19	-61.689	55.868	-1.489	83.81
	30.45	-5.005	-6.056	-12.6	67.38	-60.491	73.219	-1.486	82.332
	30.5	-5.096	-7.032	-12.703	65.59	-58.583	91.814	-1.475	80.682
	30.55	-5.168	-8.254	-12.801	63.817	-60.071	71.337	-1.46	79.368
	30.6	-5.228	-9.296	-12.893	62.003	-57.901	69.676	-1.474	77.86
	30.65	-5.323	-10.454	-13.008	60.102	-57.392	79.773	-1.443	76.287
	30.7	-5.392	-11.543	-13.111	58.229	-57.422	73.551	-1.441	74.869
	30.75	-5.488	-12.721	-13.21	56.374	-56.044	75.523	-1.422	73.309
	30.8	-5.559	-13.824	-13.314	54.559	-54.936	66.175	-1.401	71.873
	30.85	-5.667	-14.885	-13.428	52.618	-56.59	61.95	-1.389	70.433
	30.9	-5.764	-16.219	-13.534	50.825	-55.83	67.887	-1.364	69.138
	30.95	-5.847	-17.485	-13.654	48.986	-54.595	65.031	-1.356	67.685
	31	-5.949	-18.496	-13.777	47.098	-55.037	64.26	-1.322	66.269
	31.05	-6.068	-19.706	-13.884	45.373	-54.813	58.15	-1.311	65.046
	31.1	-6.158	-20.958	-13.985	43.435	-53.76	68.61	-1.289	63.632
	31.15	-6.255	-22.28	-14.117	41.533	-53.956	67.061	-1.26	62.528
	31.2	-6.371	-23.451	-14.203	39.815	-52.189	62.703	-1.255	61.221
	31.25	-6.519	-24.702	-14.323	37.957	-51.619	63.86	-1.225	59.843
	31.3	-6.628	-26.234	-14.43	36.115	-52.536	56.045	-1.216	58.707
	31.35	-6.733	-27.457	-14.55	34.258	-51.166	47.862	-1.202	57.489
	31.4	-6.881	-28.877	-14.673	32.432	-51.874	53.365	-1.184	56.386
	31.45	-6.991	-30.095	-14.778	30.656	-51.038	47.99	-1.177	55.189
	31.5	-7.168	-31.633	-14.893	28.8	-51.414	45.436	-1.159	54.09
	31.55	-7.239	-33.172	-15.003	26.927	-50.636	44.582	-1.158	52.956
	31.6	-7.431	-34.249	-15.157	25.21	-49.889	44.613	-1.143	51.968
	31.65	-7.587	-36.197	-15.25	23.409	-49.848	43.247	-1.144	50.907
	31.7	-7.709	-37.305	-15.4	21.847	-49.105	44.116	-1.13	49.833
	31.75	-7.887	-39.324	-15.474	19.969	-48.449	38.105	-1.134	48.871
	31.8	-7.965	-40.506	-15.585	18.117	-48.102	40.816	-1.141	47.678
	31.85	-8.249	-42.262	-15.696	16.414	-47.322	37.79	-1.131	46.848
	31.9	-8.35	-44.438	-15.833	14.683	-47.162	35.513	-1.161	45.742
	31.95	-8.553	-45.46	-15.958	12.843	-46.365	32.837	-1.139	44.697
	32	-8.759	-47.893	-16.034	11.095	-46.481	27.022	-1.175	43.837
	32.05	-8.856	-48.985	-16.143	9.335	-45.724	25.039	-1.175	42.593
	32.1	-9.148	-51.141	-16.277	7.488	-45.249	21.278	-1.185	41.91
	32.15	-9.22	-53.085	-16.353	5.837	-45.18	17.03	-1.23	40.62
	32.2	-9.525	-54.512	-16.479	4.172	-44.949	13.98	-1.208	39.605
	32.25	-9.66	-57.174	-16.561	2.296	-44.993	15.966	-1.265	38.741
	32.3	-9.876	-58.263	-16.669	0.521	-44.354	9.565	-1.265	37.432
	32.35	-10.099	-61.095	-16.78	-1.166	-44.259	8.637	-1.304	36.721
	32.4	-10.23	-62.367	-16.884	-2.982	-43.841	6.061	-1.341	35.281
	32.45	-10.624	-64.967	-16.965	-4.573	-43.215	4.019	-1.332	34.476
	32.5	-10.682	-67.008	-17.052	-6.416	-43.512	0.019	-1.404	33.297
	32.55	-11.099	-68.33	-17.182	-8.26	-43.95	-2.99	-1.41	32.11
	32.6	-11.208	-71.833	-17.236	-10.156	-42.947	-5.164	-1.467	31.209
	32.65	-11.484	-72.178	-17.32	-11.96	-42.615	-6.32	-1.5	29.769
	32.7	-11.869	-75.589	-17.427	-13.981	-42.8	-8.626	-1.533	28.955
	32.75	-11.944	-76.863	-17.519	-15.763	-42.58	-10.312	-1.597	27.49
	32.8	-12.45	-79.222	-17.628	-17.626	-42.328	-13.969	-1.597	26.525
	32.85	-12.544	-81.807	-17.724	-19.398	-42.512	-15.936	-1.702	25.332
	32.9	-13.023	-82.978	-17.813	-21.078	-42.498	-16.546	-1.701	23.963
	32.95	-13.269	-86.909	-17.9	-23.184	-42.148	-18.734	-1.767	23.171
	33	-13.613	-87.347	-18.001	-25.115	-42.159	-21.538	-1.816	21.673
	33.05	-14.167	-91.202	-18.1	-26.711	-42.152	-22.88	-1.833	20.793
	33.1	-14.328	-92.737	-18.181	-28.65	-41.404	-20.905	-1.927	19.508
	33.15	-15.078	-95.338	-18.261	-30.471	-41.973	-25.584	-1.93	18.416
	33.2	-15.254	-98.793	-18.365	-32.301	-41.534	-25.41	-2.018	17.5
	33.25	-16.001	-99.646	-18.434	-34.324	-41.314	-29.129	-2.052	16.116
	33.3	-16.584	-104.665	-18.525	-36.089	-41.352	-32.564	-2.092	15.482
	33.35	-17.192	-104.791	-18.627	-38.332	-41.207	-36.397	-2.162	14.092
	33.4	-18.291	-110.678	-18.71	-40.322	-41.396	-38.493	-2.168	13.371
	33.45	-18.552	-112.965	-18.814	-42.559	-41.29	-37.578	-2.265	12.429
	33.5	-20.088	-115.954	-18.975	-44.518	-41.49	-38.324	-2.285	11.337
	33.55	-20.767	-123.11	-19.037	-46.286	-41.104	-38.732	-2.347	10.71
	33.6	-22.189	-124.662	-19.128	-48.304	-40.934	-40.995	-2.379	9.629
	33.65	-23.708	-136.514	-19.257	-50.144	-40.53	-41.38	-2.412	9.157
	33.7	-25.089	-141.595	-19.339	-52.223	-40.285	-40.79	-2.483	8.231
	33.75	-27.642	-160.338	-19.454	-54.059	-40.261	-42.395	-2.473	7.631
	33.8	-28.347	-178.465	-19.573	-56.08	-39.948	-46.599	-2.531	7.167
	33.85	-29.693	149.322	-19.713	-58.109	-39.833	-48.555	-2.546	6.345
	33.9	-27.467	125.864	-19.823	-59.841	-39.925	-47.45	-2.582	6.018
	33.95	-26.146	106.153	-19.912	-61.729	-39.526	-49.302	-2.609	5.398
	34	-23.459	95.594	-20.01	-63.936	-39.388	-52.396	-2.612	4.938
	34.05	-22.324	87.47	-20.175	-66.134	-39.622	-55.438	-2.641	4.42
	34.1	-20.357	78.653	-20.302	-67.917	-39.4	-55.049	-2.623	3.972
	34.15	-18.951	75.679	-20.392	-69.607	-39.036	-57.679	-2.678	3.845
	34.2	-17.784	70.015	-20.516	-71.362	-38.713	-57.819	-2.672	3.355
	34.25	-16.711	66.878	-20.622	-73.473	-38.369	-61.334	-2.671	3.227
	34.3	-15.855	62.32	-20.742	-75.493	-38.517	-62.659	-2.672	2.838
	34.35	-14.759	60.292	-20.862	-77.564	-38.363	-65.319	-2.653	2.628
	34.4	-14.196	57.784	-20.977	-79.698	-38.277	-67.562	-2.652	2.361
	34.45	-13.382	54.302	-21.129	-81.246	-38.239	-69.127	-2.598	2.034
	34.5	-12.722	52.537	-21.237	-83.304	-38.19	-71.213	-2.585	1.988
	34.55	-12.135	49.157	-21.391	-85.292	-38.18	-73.215	-2.563	1.586
	34.6	-11.515	47.635	-21.488	-87.338	-38.021	-74.933	-2.509	1.377
	34.65	-11.163	44.818	-21.658	-89.174	-38.157	-76.863	-2.502	1.001
	34.7	-10.587	42.371	-21.789	-90.944	-38.028	-80.4	-2.46	0.681
	34.75	-10.232	40.735	-21.914	-93.106	-37.89	-81.301	-2.419	0.378
	34.8	-9.802	38.389	-22.01	-94.88	-37.982	-82.742	-2.384	-0.028
	34.85	-9.444	36.819	-22.151	-96.703	-37.666	-84.939	-2.352	-0.33
	34.9	-9.118	34.289	-22.235	-99.442	-37.449	-88.689	-2.305	-0.867
	34.95	-8.729	32.809	-22.406	-101.15	-37.528	-93.414	-2.268	-1.203
	35	-8.523	30.897	-22.615	-103.423	-37.775	-95.611	-2.236	-1.706
